"ba37-FL210-1_500 - RawData"
"Wavelength nm."	"Abs."
200,00	4,33992
201,00	4,81738
202,00	4,51630
203,00	4,51630
204,00	4,51630
205,00	4,33992
206,00	4,33992
207,00	4,21521
208,00	4,81738
209,00	4,81738
210,00	5,00000
211,00	4,81738
212,00	4,51630
213,00	5,00000
214,00	5,00000
215,00	4,51630
216,00	5,00000
217,00	5,00000
218,00	4,81738
219,00	5,00000
220,00	5,00000
221,00	4,81738
222,00	4,51630
223,00	5,00000
224,00	5,00000
225,00	4,33992
226,00	5,00000
227,00	5,00000
228,00	4,51630
229,00	5,00000
230,00	5,00000
231,00	5,00000
232,00	5,00000
233,00	5,00000
234,00	4,81738
235,00	5,00000
236,00	5,00000
237,00	4,81738
238,00	5,00000
239,00	5,00000
240,00	4,81738
241,00	5,00000
242,00	5,00000
243,00	4,81738
244,00	5,00000
245,00	5,00000
246,00	4,81738
247,00	5,00000
248,00	5,00000
249,00	4,81738
250,00	5,00000
251,00	5,00000
252,00	5,00000
253,00	5,00000
254,00	5,00000
255,00	5,00000
256,00	5,00000
257,00	5,00000
258,00	4,51630
259,00	5,00000
260,00	5,00000
261,00	4,81738
262,00	4,81738
263,00	5,00000
264,00	5,00000
265,00	4,51630
266,00	5,00000
267,00	5,00000
268,00	4,81738
269,00	4,51630
270,00	4,51630
271,00	4,51630
272,00	4,21521
273,00	4,51630
274,00	4,51630
275,00	4,81738
276,00	4,81738
277,00	4,81738
278,00	4,11874
279,00	4,21521
280,00	4,11874
281,00	4,11874
282,00	4,03883
283,00	4,03883
284,00	3,97156
285,00	4,03883
286,00	3,97156
287,00	3,97156
288,00	3,77592
289,00	3,67047
290,00	2,32890
291,00	2,34328
292,00	2,14706
293,00	1,67145
294,00	1,18686
295,00	0,84427
296,00	0,63187
297,00	0,49844
298,00	0,41441
299,00	0,36621
300,00	0,33318
301,00	0,31282
302,00	0,29922
303,00	0,29189
304,00	0,28911
305,00	0,31293
306,00	0,27780
307,00	0,27776
308,00	0,27745
309,00	0,27591
310,00	0,27298
311,00	0,27151
312,00	0,27090
313,00	0,26985
314,00	0,26945
315,00	0,27011
316,00	0,27037
317,00	0,26791
318,00	0,26814
319,00	0,26917
320,00	0,26863
321,00	0,26813
322,00	0,26665
323,00	0,26907
324,00	0,26904
325,00	0,26796
326,00	0,26851
327,00	0,27013
328,00	0,27036
329,00	0,27071
330,00	0,27190
331,00	0,27370
332,00	0,27768
333,00	0,27890
334,00	0,28035
335,00	0,28352
336,00	0,28583
337,00	0,28726
338,00	0,28987
339,00	0,29166
340,00	0,29347
341,00	0,29466
342,00	0,29663
343,00	0,29799
344,00	0,29840
345,00	0,30011
346,00	0,30394
347,00	0,30844
348,00	0,30963
349,00	0,31210
350,00	0,31670
351,00	0,32043
352,00	0,32524
353,00	0,32982
354,00	0,33519
355,00	0,34261
356,00	0,34782
357,00	0,35170
358,00	0,35886
359,00	0,36549
360,00	0,37122
361,00	0,37769
362,00	0,38513
363,00	0,39313
364,00	0,39336
365,00	0,40816
366,00	0,41777
367,00	0,42642
368,00	0,43236
369,00	0,44023
370,00	0,44958
371,00	0,45955
372,00	0,46809
373,00	0,47601
374,00	0,48543
375,00	0,49541
376,00	0,50272
377,00	0,50975
378,00	0,51773
379,00	0,52487
380,00	0,53314
381,00	0,54097
382,00	0,54813
383,00	0,55446
384,00	0,56059
385,00	0,56570
386,00	0,57216
387,00	0,57704
388,00	0,58037
389,00	0,58357
390,00	0,58620
391,00	0,58861
392,00	0,58855
393,00	0,58853
394,00	0,58868
395,00	0,59029
396,00	0,58815
397,00	0,58644
398,00	0,58405
399,00	0,58194
400,00	0,57826
401,00	0,57431
402,00	0,56978
403,00	0,56616
404,00	0,55966
405,00	0,55313
406,00	0,54625
407,00	0,53865
408,00	0,52928
409,00	0,51936
410,00	0,51180
411,00	0,50209
412,00	0,49118
413,00	0,47783
414,00	0,46704
415,00	0,45528
416,00	0,44099
417,00	0,42422
418,00	0,40903
419,00	0,39507
420,00	0,37973
421,00	0,36436
422,00	0,34949
423,00	0,33557
424,00	0,32144
425,00	0,30777
426,00	0,29384
427,00	0,28116
428,00	0,26874
429,00	0,25772
430,00	0,24637
431,00	0,23788
432,00	0,22733
433,00	0,21802
434,00	0,21085
435,00	0,20462
436,00	0,19833
437,00	0,19312
438,00	0,18816
439,00	0,18446
440,00	0,18080
441,00	0,17659
442,00	0,17523
443,00	0,17480
444,00	0,17305
445,00	0,17191
446,00	0,17247
447,00	0,17261
448,00	0,17297
449,00	0,17360
450,00	0,17567
451,00	0,17816
452,00	0,17900
453,00	0,17993
454,00	0,18260
455,00	0,18506
456,00	0,18808
457,00	0,19119
458,00	0,19418
459,00	0,19795
460,00	0,20135
461,00	0,20448
462,00	0,20894
463,00	0,21297
464,00	0,21555
465,00	0,21976
466,00	0,22353
467,00	0,22780
468,00	0,23190
469,00	0,23463
470,00	0,24023
471,00	0,24567
472,00	0,24924
473,00	0,25330
474,00	0,25871
475,00	0,26425
476,00	0,26904
477,00	0,27339
478,00	0,27861
479,00	0,28479
480,00	0,29016
481,00	0,29468
482,00	0,30046
483,00	0,30582
484,00	0,31058
485,00	0,31612
486,00	0,32179
487,00	0,32875
488,00	0,33350
489,00	0,33856
490,00	0,34544
491,00	0,35226
492,00	0,35770
493,00	0,36406
494,00	0,37053
495,00	0,37714
496,00	0,38287
497,00	0,38789
498,00	0,39447
499,00	0,40182
500,00	0,40799
501,00	0,41409
502,00	0,42081
503,00	0,42726
504,00	0,43536
505,00	0,44115
506,00	0,44801
507,00	0,45424
508,00	0,46022
509,00	0,46606
510,00	0,47272
511,00	0,47899
512,00	0,48405
513,00	0,49107
514,00	0,49754
515,00	0,50409
516,00	0,51146
517,00	0,51669
518,00	0,52370
519,00	0,53026
520,00	0,53641
521,00	0,54268
522,00	0,54784
523,00	0,55385
524,00	0,56042
525,00	0,56602
526,00	0,57130
527,00	0,57835
528,00	0,58311
529,00	0,58833
530,00	0,59375
531,00	0,59818
532,00	0,60323
533,00	0,60732
534,00	0,61142
535,00	0,61612
536,00	0,62395
537,00	0,62598
538,00	0,62900
539,00	0,63420
540,00	0,63829
541,00	0,64134
542,00	0,64503
543,00	0,64914
544,00	0,65277
545,00	0,65508
546,00	0,65791
547,00	0,66058
548,00	0,66342
549,00	0,66527
550,00	0,66759
551,00	0,67044
552,00	0,67297
553,00	0,67381
554,00	0,67598
555,00	0,67744
556,00	0,67911
557,00	0,68001
558,00	0,68080
559,00	0,68182
560,00	0,68309
561,00	0,68295
562,00	0,68208
563,00	0,68196
564,00	0,68253
565,00	0,68150
566,00	0,68002
567,00	0,67928
568,00	0,67836
569,00	0,67714
570,00	0,67494
571,00	0,67265
572,00	0,67012
573,00	0,66663
574,00	0,66277
575,00	0,65897
576,00	0,65656
577,00	0,65196
578,00	0,64725
579,00	0,64230
580,00	0,63870
581,00	0,63342
582,00	0,62755
583,00	0,62140
584,00	0,61388
585,00	0,60715
586,00	0,59891
587,00	0,59233
588,00	0,58537
589,00	0,57732
590,00	0,56854
591,00	0,55939
592,00	0,55107
593,00	0,54126
594,00	0,53230
595,00	0,52109
596,00	0,51015
597,00	0,50029
598,00	0,49033
599,00	0,47917
600,00	0,46899
601,00	0,45892
602,00	0,44720
603,00	0,43690
604,00	0,42574
605,00	0,41483
606,00	0,40282
607,00	0,39117
608,00	0,38136
609,00	0,36992
610,00	0,35934
611,00	0,34882
612,00	0,33824
613,00	0,32817
614,00	0,31894
615,00	0,30771
616,00	0,29700
617,00	0,28720
618,00	0,27798
619,00	0,26720
620,00	0,25688
621,00	0,24786
622,00	0,23897
623,00	0,22984
624,00	0,22040
625,00	0,21114
626,00	0,20146
627,00	0,19176
628,00	0,18358
629,00	0,17514
630,00	0,16679
631,00	0,15967
632,00	0,15196
633,00	0,14589
634,00	0,13945
635,00	0,13240
636,00	0,12569
637,00	0,11928
638,00	0,11382
639,00	0,10861
640,00	0,10339
641,00	0,09789
642,00	0,09366
643,00	0,08871
644,00	0,08443
645,00	0,07993
646,00	0,07587
647,00	0,07286
648,00	0,06812
649,00	0,06407
650,00	0,06183
651,00	0,05804
652,00	0,05513
653,00	0,05267
654,00	0,04971
655,00	0,04749
656,00	0,04507
657,00	0,04140
658,00	0,03896
659,00	0,03737
660,00	0,03493
661,00	0,03233
662,00	0,03133
663,00	0,02951
664,00	0,02808
665,00	0,02596
666,00	0,02371
667,00	0,02252
668,00	0,02159
669,00	0,02087
670,00	0,01881
671,00	0,01790
672,00	0,01729
673,00	0,01628
674,00	0,01549
675,00	0,01497
676,00	0,01387
677,00	0,01262
678,00	0,01219
679,00	0,01022
680,00	0,01067
681,00	0,01038
682,00	0,00894
683,00	0,00856
684,00	0,00775
685,00	0,00690
686,00	0,00641
687,00	0,00626
688,00	0,00583
689,00	0,00514
690,00	0,00482
691,00	0,00441
692,00	0,00435
693,00	0,00417
694,00	0,00401
695,00	0,00291
696,00	0,00299
697,00	0,00394
698,00	0,00246
699,00	0,00272
700,00	0,00343
701,00	0,00294
702,00	0,00316
703,00	0,00288
704,00	0,00227
705,00	0,00310
706,00	0,00389
707,00	0,00342
708,00	0,00348
709,00	0,00279
710,00	0,00258
711,00	0,00182
712,00	0,00092
713,00	0,00060
714,00	0,00150
715,00	-0,00011
716,00	-0,00017
717,00	-0,00017
718,00	0,00009
719,00	0,00055
720,00	-0,00060
721,00	-0,00089
722,00	-0,00166
723,00	-0,00087
724,00	-0,00143
725,00	-0,00093
726,00	-0,00050
727,00	0,00006
728,00	-0,00087
729,00	-0,00114
730,00	-0,00146
731,00	-0,00070
732,00	-0,00085
733,00	-0,00061
734,00	-0,00075
735,00	-0,00085
736,00	-0,00029
737,00	-0,00038
738,00	-0,00095
739,00	-0,00096
740,00	-0,00105
741,00	-0,00122
742,00	-0,00089
743,00	-0,00084
744,00	-0,00075
745,00	-0,00096
746,00	-0,00140
747,00	-0,00110
748,00	-0,00078
749,00	-0,00081
750,00	-0,00021
751,00	-0,00035
752,00	0,00012
753,00	-0,00052
754,00	-0,00105
755,00	-0,00119
756,00	-0,00081
757,00	-0,00040
758,00	-0,00012
759,00	-0,00058
760,00	-0,00252
761,00	-0,00101
762,00	-0,00058
763,00	-0,00075
764,00	-0,00159
765,00	-0,00095
766,00	-0,00089
767,00	-0,00063
768,00	-0,00006
769,00	-0,00085
770,00	-0,00085
771,00	-0,00066
772,00	-0,00093
773,00	-0,00060
774,00	-0,00052
775,00	0,00024
776,00	-0,00029
777,00	0,00020
778,00	-0,00078
779,00	-0,00125
780,00	-0,00044
781,00	-0,00095
782,00	0,00015
783,00	0,00005
784,00	0,00018
785,00	0,00018
786,00	-0,00035
787,00	-0,00049
788,00	0,00040
789,00	-0,00020
790,00	0,00073
791,00	-0,00006
792,00	-0,00011
793,00	0,00037
794,00	-0,00056
795,00	-0,00012
796,00	-0,00047
797,00	0,00023
798,00	0,00037
799,00	0,00067
800,00	-0,00024
